File: SM_0_xrd_clean.csv
"2Theta","J_0_AD_","J_0_GL_","J_0_HT_"
4.00337,467,484,565
4.02963,430,482,479
4.05589,465,463,559
4.08215,497,483,494
4.10841,461,434,495
4.13467,450,445,508
4.16093,481,460,501
4.18719,465,495,477
4.21345,443,448,506
4.23971,482,425,479
4.26597,500,434,509
4.29223,419,438,498
4.31849,452,424,456
4.34475,459,484,514
4.37101,462,465,468
4.39727,476,463,528
4.42353,446,442,473
4.44979,466,504,522
4.47606,448,436,518
4.50232,452,460,484
4.52858,474,472,492
4.55484,469,470,504
4.5811,496,492,488
4.60736,465,481,466
4.63362,460,468,507
4.65988,497,463,512
4.68614,513,446,448
4.7124,515,467,511
4.73866,504,490,494
4.76492,485,456,480
4.79118,523,462,460
4.81744,537,509,460
4.8437,532,492,433
4.86996,555,507,446
4.89622,487,469,421
4.92248,544,530,470
4.94875,538,539,464
4.97501,554,523,432
5.00127,550,485,462
5.02753,557,520,442
5.05379,595,518,464
5.08005,542,520,466
5.10631,532,510,437
5.13257,566,568,467
5.15883,555,566,497
5.18509,567,511,457
5.21135,554,543,488
5.23761,589,495,472
5.26387,545,529,481
5.29013,590,511,484
5.31639,617,529,427
5.34265,566,520,487
5.36891,574,583,441
5.39518,569,536,416
5.42144,620,573,444
5.4477,569,535,471
5.47396,591,600,492
5.50022,605,564,430
5.52648,615,516,400
5.55274,591,587,449
5.579,628,537,440
5.60526,634,592,403
5.63152,595,578,417
5.65778,636,633,436
5.68404,666,537,415
5.7103,635,622,448
5.73656,609,604,446
5.76282,648,575,475
5.78908,657,594,477
5.81534,650,602,455
5.8416,622,565,462
5.86787,674,595,428
5.89413,702,596,452
5.92039,657,611,459
5.94665,629,597,447
5.97291,635,620,441
5.99917,719,658,440
6.02543,678,642,460
6.05169,690,675,449
6.07795,699,684,427
6.10421,687,624,463
6.13047,753,688,462
6.15673,730,646,482
6.18299,732,681,467
6.20925,762,682,444
6.23551,718,662,453
6.26177,790,660,442
6.28803,779,684,385
6.31429,746,695,404
6.34056,795,716,456
6.36682,749,721,454
6.39308,760,724,402
6.41934,753,686,424
6.4456,780,747,414
6.47186,759,661,415
6.49812,803,740,413
6.52438,773,743,401
6.55064,800,722,348
6.5769,896,734,443
6.60316,827,715,466
6.62942,857,715,405
6.65568,857,712,467
6.68194,848,733,437
6.7082,823,714,454
6.73446,815,700,402
6.76072,874,685,418
6.78699,861,720,425
6.81325,906,699,397
6.83951,905,762,407
6.86577,958,715,451
6.89203,919,762,410
6.91829,926,709,397
6.94455,964,744,406
6.97081,921,783,496
6.99707,921,711,397
7.02333,947,701,429
7.04959,972,700,391
7.07585,1017,714,408
7.10211,1023,702,407
7.12837,967,705,394
7.15463,953,692,401
7.18089,967,692,440
7.20715,1018,682,376
7.23341,1002,680,425
7.25968,1050,665,433
7.28594,1028,673,427
7.3122,1043,700,420
7.33846,1104,723,418
7.36472,1018,675,424
7.39098,1009,647,452
7.41724,1078,673,427
7.4435,1038,698,391
7.46976,1076,649,402
7.49602,1085,618,403
7.52228,1073,687,430
7.54854,1018,698,432
7.5748,1038,642,435
7.60106,1027,652,389
7.62732,1040,683,367
7.65358,1126,698,428
7.67984,1041,661,449
7.7061,1057,646,446
7.73237,1038,608,380
7.75863,1076,633,426
7.78489,1057,657,417
7.81115,1106,629,417
7.83741,1094,644,375
7.86367,1013,664,417
7.88993,1081,674,412
7.91619,1039,659,433
7.94245,1044,709,407
7.96871,1119,659,396
7.99497,1090,674,432
8.02123,1080,683,408
8.04749,1083,635,425
8.07375,1043,654,434
8.10001,1094,670,426
8.12627,1120,650,400
8.15253,1024,642,426
8.1788,1007,661,409
8.20506,1070,640,414
8.23132,1029,641,441
8.25758,1064,637,430
8.28384,1004,629,482
8.3101,1054,644,431
8.33636,994,664,446
8.36262,971,631,441
8.38888,943,677,473
8.41514,979,696,436
8.4414,972,652,443
8.46766,939,709,467
8.49392,924,671,471
8.52018,915,687,495
8.54644,955,697,513
8.5727,934,668,498
8.59896,916,707,512
8.62522,888,652,498
8.65149,890,705,468
8.67775,821,684,519
8.70401,860,703,452
8.73027,833,725,494
8.75653,903,763,496
8.78279,917,774,447
8.80905,901,779,445
8.83531,802,719,414
8.86157,778,720,452
8.88783,689,677,400
8.91409,736,701,434
8.94035,680,699,382
8.96661,714,684,415
8.99287,657,638,396
9.01913,653,652,386
9.04539,652,693,361
9.07165,618,683,404
9.09791,611,677,405
9.12418,593,657,416
9.15044,601,698,368
9.1767,576,652,374
9.20296,546,630,396
9.22922,596,637,343
9.25548,594,696,388
9.28174,568,634,357
9.308,552,683,379
9.33426,535,673,390
9.36052,512,689,401
9.38678,549,687,339
9.41304,488,679,349
9.4393,522,657,343
9.46556,516,641,370
9.49182,519,670,373
9.51808,500,686,371
9.54434,487,691,389
9.5706,488,659,354
9.59687,485,679,353
9.62313,503,687,365
9.64939,479,638,372
9.67565,476,633,367
9.70191,457,636,355
9.72817,498,601,376
9.75443,422,609,327
9.78069,432,602,343
9.80695,453,607,350
9.83321,442,578,386
9.85947,432,585,371
9.88573,466,598,361
9.91199,467,597,357
9.93825,381,579,373
9.96451,462,542,354
9.99077,424,595,376
10.017,418,592,341
10.0433,437,569,362
10.0696,449,579,361
10.0958,426,563,359
10.1221,443,572,362
10.1483,433,565,361
10.1746,395,540,341
10.2009,421,582,338
10.2271,424,533,363
10.2534,438,585,334
10.2796,412,548,340
10.3059,365,521,328
10.3322,447,575,335
10.3584,408,499,346
10.3847,388,557,339
10.4109,422,547,337
10.4372,466,546,341
10.4635,423,523,337
10.4897,429,548,314
10.516,419,520,358
10.5422,398,542,334
10.5685,451,510,312
10.5948,393,539,341
10.621,410,515,370
10.6473,402,535,354
10.6735,395,502,337
10.6998,406,545,295
10.7261,420,521,330
10.7523,374,481,317
10.7786,388,533,342
10.8049,382,479,310
10.8311,438,527,338
10.8574,394,499,361
10.8836,410,518,339
10.9099,395,551,305
10.9362,394,515,323
10.9624,382,519,352
10.9887,420,559,332
11.0149,413,540,344
11.0412,408,537,336
11.0675,354,522,306
11.0937,403,532,352
11.12,356,529,328
11.1462,382,485,309
11.1725,424,504,315
11.1988,401,510,353
11.225,430,514,345
11.2513,423,509,339
11.2775,422,521,342
11.3038,458,517,343
11.3301,490,487,350
11.3563,528,524,321
11.3826,534,560,317
11.4088,659,459,331
11.4351,635,510,337
11.4614,728,494,320
11.4876,840,532,328
11.5139,1011,485,332
11.5401,1065,537,327
11.5664,981,536,313
11.5927,759,502,326
11.6189,549,555,309
11.6452,526,529,319
11.6715,471,509,325
11.6977,492,524,344
11.724,425,504,329
11.7502,431,498,337
11.7765,460,572,341
11.8028,423,567,331
11.829,444,549,311
11.8553,472,521,339
11.8815,471,523,335
11.9078,482,561,320
11.9341,507,608,334
11.9603,558,647,360
11.9866,618,633,354
12.0128,701,678,386
12.0391,801,747,394
12.0654,884,778,405
12.0916,1082,877,369
12.1179,1420,1126,365
12.1441,1788,1299,320
12.1704,2394,1688,325
12.1967,3383,2100,315
12.2229,5053,2928,325
12.2492,7988,4612,313
12.2754,12282,7112,325
12.3017,10707,6502,336
12.328,5794,3599,334
12.3542,2161,1536,324
12.3805,1154,907,290
12.4067,891,804,291
12.433,702,677,322
12.4593,604,670,299
12.4855,532,648,333
12.5118,523,565,335
12.538,432,551,344
12.5643,440,589,325
12.5906,390,575,323
12.6168,404,530,308
12.6431,406,540,305
12.6694,391,516,321
12.6956,382,546,347
12.7219,374,521,351
12.7481,365,530,336
12.7744,315,551,340
12.8007,353,554,322
12.8269,380,540,332
12.8532,360,490,337
12.8794,347,534,318
12.9057,341,559,343
12.932,315,497,314
12.9582,364,504,314
12.9845,338,526,291
13.0107,351,534,331
13.037,342,537,302
13.0633,381,470,356
13.0895,336,538,344
13.1158,340,552,307
13.142,351,535,320
13.1683,393,525,323
13.1946,463,528,333
13.2208,453,542,306
13.2471,395,525,307
13.2733,353,601,351
13.2996,384,481,310
13.3259,339,547,340
13.3521,370,532,343
13.3784,343,478,316
13.4046,328,474,303
13.4309,364,507,316
13.4572,332,509,288
13.4834,345,488,280
13.5097,363,541,320
13.536,362,519,284
13.5622,340,539,326
13.5885,336,496,269
13.6147,358,508,304
13.641,335,509,296
13.6673,343,503,288
13.6935,311,512,299
13.7198,302,483,311
13.746,285,524,310
13.7723,320,454,302
13.7986,304,545,309
13.8248,310,469,285
13.8511,327,487,277
13.8773,311,516,317
13.9036,295,480,308
13.9299,299,529,301
13.9561,288,516,340
13.9824,298,507,298
14.0086,295,483,308
14.0349,297,479,295
14.0612,314,458,293
14.0874,314,467,324
14.1137,308,488,301
14.1399,272,510,339
14.1662,312,494,301
14.1925,295,472,291
14.2187,276,486,300
14.245,270,502,326
14.2712,316,490,299
14.2975,283,505,282
14.3238,286,484,304
14.35,304,503,330
14.3763,278,514,301
14.4025,289,493,318
14.4288,282,511,296
14.4551,278,534,287
14.4813,286,508,315
14.5076,291,522,291
14.5339,261,571,297
14.5601,312,589,301
14.5864,306,585,298
14.6126,301,623,241
14.6389,312,592,287
14.6652,278,590,279
14.6914,297,515,286
14.7177,272,483,283
14.7439,287,527,296
14.7702,310,514,342
14.7965,300,518,282
14.8227,324,518,296
14.849,300,505,282
14.8752,304,445,279
14.9015,318,519,291
14.9278,267,498,275
14.954,295,517,297
14.9803,312,475,310
15.0065,296,485,288
15.0328,267,516,302
15.0591,277,523,274
15.0853,259,474,276
15.1116,299,496,274
15.1378,284,511,281
15.1641,278,454,286
15.1904,287,486,265
15.2166,268,498,297
15.2429,275,482,297
15.2691,285,530,285
15.2954,294,522,308
15.3217,287,504,306
15.3479,262,519,271
15.3742,293,488,295
15.4005,264,482,290
15.4267,270,507,297
15.453,298,489,306
15.4792,296,482,278
15.5055,283,482,321
15.5318,316,506,304
15.558,272,482,285
15.5843,301,492,309
15.6105,284,488,308
15.6368,258,497,298
15.6631,293,520,261
15.6893,268,529,303
15.7156,302,498,296
15.7418,271,540,282
15.7681,280,547,276
15.7944,291,500,313
15.8206,239,534,296
15.8469,288,545,291
15.8731,259,464,291
15.8994,285,491,256
15.9257,299,498,289
15.9519,263,537,289
15.9782,279,520,284
16.0044,300,496,297
16.0307,249,513,301
16.057,290,560,303
16.0832,300,484,313
16.1095,269,479,318
16.1357,296,525,284
16.162,294,521,302
16.1883,304,569,264
16.2145,276,531,272
16.2408,247,559,312
16.267,286,516,312
16.2933,277,570,274
16.3196,271,555,283
16.3458,292,550,323
16.3721,326,554,278
16.3984,281,501,311
16.4246,305,551,288
16.4509,265,554,301
16.4771,300,526,314
16.5034,303,534,304
16.5297,300,607,315
16.5559,317,560,309
16.5822,282,566,273
16.6084,301,561,287
16.6347,278,566,305
16.661,289,615,304
16.6872,298,577,285
16.7135,300,547,312
16.7397,301,563,293
16.766,303,592,322
16.7923,301,561,316
16.8185,318,555,316
16.8448,314,617,298
16.871,282,606,327
16.8973,294,564,305
16.9236,285,602,316
16.9498,298,587,307
16.9761,334,583,331
17.0023,334,581,324
17.0286,321,596,350
17.0549,352,555,332
17.0811,359,594,337
17.1074,330,545,366
17.1336,341,595,353
17.1599,320,519,352
17.1862,341,601,339
17.2124,342,592,380
17.2387,329,596,368
17.265,339,620,374
17.2912,342,556,398
17.3175,338,573,426
17.3437,372,607,379
17.37,374,560,425
17.3963,377,613,405
17.4225,366,591,427
17.4488,405,631,424
17.475,353,589,464
17.5013,378,549,431
17.5276,391,586,491
17.5538,359,566,449
17.5801,359,549,471
17.6063,397,582,453
17.6326,378,636,436
17.6589,389,567,439
17.6851,373,585,459
17.7114,397,595,413
17.7376,419,607,432
17.7639,393,592,446
17.7902,360,614,405
17.8164,380,578,443
17.8427,390,562,369
17.8689,392,591,392
17.8952,330,563,403
17.9215,335,619,370
17.9477,337,601,386
17.974,312,576,360
18.0002,281,618,343
18.0265,313,575,331
18.0528,285,574,365
18.079,318,577,359
18.1053,301,556,296
18.1315,322,601,311
18.1578,296,577,324
18.1841,293,589,323
18.2103,294,606,353
18.2366,278,581,332
18.2629,277,587,329
18.2891,281,588,314
18.3154,266,592,307
18.3416,325,590,283
18.3679,277,626,282
18.3942,302,614,279
18.4204,273,584,290
18.4467,273,583,287
18.4729,258,580,304
18.4992,266,604,291
18.5255,227,598,268
18.5517,245,655,282
18.578,245,655,261
18.6042,300,596,281
18.6305,227,607,263
18.6568,268,598,286
18.683,231,592,274
18.7093,232,635,310
18.7355,242,634,269
18.7618,272,689,278
18.7881,231,656,288
18.8143,218,593,273
18.8406,243,651,284
18.8668,247,642,229
18.8931,222,668,272
18.9194,222,656,300
18.9456,206,617,230
18.9719,220,666,238
18.9981,261,634,270
19.0244,230,632,242
19.0507,230,604,274
19.0769,230,659,264
19.1032,229,616,267
19.1295,235,693,294
19.1557,199,615,236
19.182,213,677,316
19.2082,243,695,285
19.2345,219,696,266
19.2608,221,663,289
19.287,205,681,251
19.3133,236,644,288
19.3395,230,670,269
19.3658,214,690,295
19.3921,228,672,347
19.4183,226,690,303
19.4446,249,696,311
19.4708,259,672,363
19.4971,243,749,349
19.5234,263,713,345
19.5496,268,723,342
19.5759,286,725,335
19.6021,294,727,331
19.6284,277,751,296
19.6547,310,760,330
19.6809,319,847,329
19.7072,332,784,294
19.7334,383,836,289
19.7597,455,827,278
19.786,414,829,292
19.8122,366,773,288
19.8385,303,817,281
19.8647,279,732,293
19.891,265,746,291
19.9173,265,714,275
19.9435,244,715,268
19.9698,268,770,268
19.996,279,744,301
20.0223,246,756,294
20.0486,259,815,310
20.0748,261,802,290
20.1011,281,808,258
20.1274,306,783,319
20.1536,345,789,271
20.1799,355,830,276
20.2061,384,819,284
20.2324,507,925,302
20.2587,653,1089,236
20.2849,621,1076,288
20.3112,532,956,281
20.3374,427,942,269
20.3637,319,853,279
20.39,278,863,248
20.4162,322,771,261
20.4425,237,801,257
20.4687,272,830,267
20.495,281,795,275
20.5213,261,796,286
20.5475,272,822,295
20.5738,303,813,284
20.6,319,759,298
20.6263,381,807,292
20.6526,418,850,330
20.6788,409,818,288
20.7051,368,816,307
20.7313,408,825,325
20.7576,421,892,279
20.7839,467,886,324
20.8101,379,932,260
20.8364,398,917,277
20.8626,385,903,286
20.8889,410,939,284
20.9152,385,901,266
20.9414,388,878,282
20.9677,334,880,270
20.994,270,867,278
21.0202,320,865,256
21.0465,277,899,270
21.0727,326,905,285
21.099,368,877,227
21.1253,452,959,277
21.1515,536,1078,234
21.1778,500,994,223
21.204,442,950,242
21.2303,420,948,249
21.2566,329,895,281
21.2828,320,869,256
21.3091,280,861,233
21.3353,308,813,249
21.3616,323,938,270
21.3879,356,875,267
21.4141,350,934,243
21.4404,368,911,270
21.4666,345,904,260
21.4929,317,855,236
21.5192,261,904,250
21.5454,235,843,246
21.5717,223,847,227
21.5979,216,812,240
21.6242,213,809,241
21.6505,217,842,231
21.6767,212,780,222
21.703,209,865,211
21.7292,217,832,249
21.7555,188,753,243
21.7818,193,841,231
21.808,212,828,247
21.8343,206,801,235
21.8605,204,828,247
21.8868,199,777,233
21.9131,186,823,227
21.9393,180,858,243
21.9656,184,795,241
21.9919,197,842,268
22.0181,185,835,241
22.0444,172,806,235
22.0706,192,839,228
22.0969,199,800,257
22.1232,206,811,239
22.1494,220,805,268
22.1757,198,868,243
22.2019,207,818,272
22.2282,232,853,287
22.2545,231,816,250
22.2807,217,848,273
22.307,235,857,232
22.3332,235,796,275
22.3595,220,862,288
22.3858,242,870,246
22.412,245,831,217
22.4383,274,871,249
22.4645,238,831,285
22.4908,289,831,228
22.5171,241,905,237
22.5433,190,837,264
22.5696,188,853,268
22.5958,186,900,275
22.6221,195,805,264
22.6484,209,765,243
22.6746,207,742,281
22.7009,178,824,278
22.7271,205,809,297
22.7534,194,755,287
22.7797,212,814,271
22.8059,232,824,265
22.8322,234,780,279
22.8585,246,826,288
22.8847,325,849,247
22.911,348,943,273
22.9372,321,861,237
22.9635,315,836,272
22.9898,330,870,259
23.016,329,853,259
23.0423,380,868,259
23.0685,296,898,276
23.0948,303,865,258
23.1211,269,800,282
23.1473,242,723,289
23.1736,237,805,288
23.1998,249,756,288
23.2261,263,745,267
23.2524,335,753,276
23.2786,364,806,260
23.3049,350,823,274
23.3311,399,848,267
23.3574,338,847,263
23.3837,377,873,256
23.4099,348,836,279
23.4362,272,839,230
23.4624,312,808,262
23.4887,272,813,238
23.515,264,784,225
23.5412,228,751,269
23.5675,274,753,221
23.5937,268,748,243
23.62,266,730,244
23.6463,266,741,233
23.6725,289,793,204
23.6988,317,783,239
23.725,277,757,249
23.7513,271,788,221
23.7776,237,697,233
23.8038,212,719,245
23.8301,226,733,263
23.8564,201,731,240
23.8826,224,708,241
23.9089,203,751,241
23.9351,195,717,218
23.9614,175,698,246
23.9877,216,687,236
24.0139,197,679,257
24.0402,213,682,199
24.0664,221,712,234
24.0927,220,716,240
24.119,203,663,210
24.1452,213,683,236
24.1715,216,704,242
24.1977,210,707,244
24.224,226,696,201
24.2503,211,674,221
24.2765,218,728,263
24.3028,244,715,228
24.329,215,713,223
24.3553,225,653,256
24.3816,225,711,236
24.4078,257,694,273
24.4341,280,667,261
24.4603,242,699,261
24.4866,259,714,261
24.5129,287,766,276
24.5391,280,730,295
24.5654,328,719,306
24.5916,319,727,296
24.6179,386,794,307
24.6442,478,852,293
24.6704,688,930,247
24.6967,890,1162,263
24.723,1470,1467,237
24.7492,2454,2081,227
24.7755,4656,3761,256
24.8017,7596,5695,246
24.828,4497,3558,226
24.8543,4079,3250,234
24.8805,3010,2462,242
24.9068,1173,1245,248
24.933,673,957,237
24.9593,453,818,271
24.9856,409,762,312
25.0118,376,747,322
25.0381,320,695,304
25.0643,306,733,383
25.0906,309,675,356
25.1169,297,656,420
25.1431,282,681,441
25.1694,283,629,464
25.1956,291,678,413
25.2219,301,678,350
25.2482,298,672,318
25.2744,282,660,278
25.3007,249,629,257
25.3269,259,632,262
25.3532,204,632,236
25.3795,195,655,248
25.4057,225,667,272
25.432,220,634,248
25.4582,242,622,259
25.4845,190,651,235
25.5108,239,647,248
25.537,232,621,257
25.5633,214,656,232
25.5895,233,660,245
25.6158,273,644,282
25.6421,241,647,257
25.6683,247,650,240
25.6946,242,582,239
25.7209,222,603,245
25.7471,231,604,276
25.7734,214,617,262
25.7996,248,567,263
25.8259,207,555,268
25.8522,249,579,262
25.8784,225,555,275
25.9047,210,601,293
25.9309,264,612,269
25.9572,261,624,305
25.9835,231,610,288
26.0097,222,578,293
26.036,264,606,276
26.0622,223,602,294
26.0885,230,611,300
26.1148,260,568,290
26.141,257,597,329
26.1673,292,580,350
26.1935,288,648,403
26.2198,275,622,426
26.2461,301,648,451
26.2723,404,726,427
26.2986,383,746,489
26.3248,431,750,502
26.3511,404,765,465
26.3774,446,755,518
26.4036,493,801,553
26.4299,533,877,580
26.4561,637,890,620
26.4824,754,953,675
26.5087,651,966,689
26.5349,845,1156,725
26.5612,1058,1235,754
26.5875,749,1058,697
26.6137,930,1143,672
26.64,1001,1252,694
26.6662,979,1277,707
26.6925,1018,1333,598
26.7188,1021,1364,602
26.745,973,1205,598
26.7713,902,1175,593
26.7975,758,1059,528
26.8238,612,962,524
26.8501,585,858,529
26.8763,500,869,524
26.9026,487,753,484
26.9288,457,741,503
26.9551,456,795,485
26.9814,475,730,420
27.0076,381,709,499
27.0339,456,654,426
27.0601,369,623,480
27.0864,374,597,441
27.1127,414,607,435
27.1389,380,578,470
27.1652,365,589,426
27.1914,390,587,482
27.2177,346,599,464
27.244,372,560,451
27.2702,375,568,434
27.2965,381,558,378
27.3227,424,642,393
27.349,475,633,379
27.3753,479,673,367
27.4015,534,638,351
27.4278,514,642,338
27.4541,595,661,355
27.4803,474,655,303
27.5066,488,651,295
27.5328,488,684,337
27.5591,426,586,275
27.5854,440,568,269
27.6116,433,566,291
27.6379,424,544,270
27.6641,368,550,280
27.6904,366,527,269
27.7167,327,494,267
27.7429,317,488,231
27.7692,300,486,246
27.7954,297,498,264
27.8217,265,476,257
27.848,276,476,238
27.8742,282,471,207
27.9005,278,434,225
27.9267,269,469,244
27.953,210,488,234
27.9793,273,527,239
28.0055,304,430,233
28.0318,247,478,217
28.058,242,479,215
28.0843,284,476,247
28.1106,243,452,215
28.1368,242,467,219
28.1631,257,485,241
28.1893,275,440,231
28.2156,277,454,245
28.2419,230,481,198
28.2681,239,481,225
28.2944,261,462,220
28.3206,248,482,203
28.3469,234,433,211
28.3732,234,445,213
28.3994,227,496,230
28.4257,240,421,190
28.452,199,434,202
28.4782,193,439,207
28.5045,215,434,199
28.5307,240,443,219
28.557,221,460,242
28.5833,210,474,180
28.6095,218,463,201
28.6358,226,443,200
28.662,265,414,183
28.6883,235,487,174
28.7146,251,419,201
28.7408,233,463,187
28.7671,222,425,172
28.7933,228,431,191
28.8196,208,440,196
28.8459,226,480,203
28.8721,205,416,177
28.8984,206,418,216
28.9246,228,424,195
28.9509,264,408,204
28.9772,280,401,209
29.0034,306,437,223
29.0297,278,429,192
29.0559,287,405,181
29.0822,288,443,164
29.1085,224,383,191
29.1347,209,447,182
29.161,213,454,192
29.1872,208,434,184
29.2135,205,417,208
29.2398,202,389,212
29.266,201,422,167
29.2923,183,413,207
29.3186,228,424,209
29.3448,219,414,210
29.3711,205,430,197
29.3973,201,431,174
29.4236,212,467,183
29.4499,197,467,212
29.4761,192,503,178
29.5024,189,506,206
29.5286,200,508,205
29.5549,218,499,209
29.5812,177,515,184
29.6074,196,499,195
29.6337,230,447,206
29.6599,236,466,178
29.6862,232,476,193
29.7125,216,422,187
29.7387,241,428,190
29.765,195,415,179
29.7912,188,428,189
29.8175,230,426,157
29.8438,204,427,183
29.87,186,410,198
29.8963,186,406,204
29.9225,192,392,181
29.9488,167,375,164
29.9751,169,398,177
30.0013,176,392,168
30.0276,172,378,173
30.0538,169,418,171
30.0801,168,408,167
30.1064,162,385,161
30.1326,143,367,168
30.1589,178,402,163
30.1851,172,402,177
30.2114,163,400,171
30.2377,160,328,189
30.2639,163,395,177
30.2902,158,385,147
30.3165,182,375,178
30.3427,171,400,168
30.369,175,370,187
30.3952,153,348,180
30.4215,158,355,157
30.4478,176,383,178
30.474,161,364,195
30.5003,147,363,174
30.5265,166,399,156
30.5528,171,388,183
30.5791,168,381,176
30.6053,175,387,181
30.6316,166,414,152
30.6578,172,385,177
30.6841,183,399,172
30.7104,193,397,169
30.7366,185,393,148
30.7629,166,391,176
30.7891,159,396,164
30.8154,165,351,156
30.8417,203,369,153
30.8679,167,391,146
30.8942,151,390,195
30.9204,178,341,166
30.9467,183,361,174
30.973,169,370,151
30.9992,159,361,165
31.0255,162,372,175
31.0517,156,338,161
31.078,137,366,189
31.1043,158,352,145
31.1305,147,361,149
31.1568,154,378,156
31.1831,148,349,168
31.2093,158,327,155
31.2356,137,350,147
31.2618,134,351,143
31.2881,122,329,167
31.3144,139,349,160
31.3406,134,323,133
31.3669,134,315,138
31.3931,150,399,141
31.4194,138,345,137
31.4457,142,343,185
31.4719,138,337,163
31.4982,132,344,161
31.5244,147,331,149
31.5507,160,333,151
31.577,135,340,169
31.6032,162,342,164
31.6295,128,335,162
31.6557,136,350,152
31.682,152,381,147
31.7083,138,361,160
31.7345,135,400,151
31.7608,179,352,176
31.787,132,351,141
31.8133,134,347,122
31.8396,134,391,129
31.8658,121,291,161
31.8921,154,335,145
31.9183,144,362,153
31.9446,154,321,138
31.9709,165,333,138
31.9971,127,345,130
32.0234,154,334,149
32.0496,153,327,151
32.0759,146,318,118
32.1022,156,349,163
32.1284,128,319,154
32.1547,152,367,157
32.181,146,329,155
32.2072,138,313,146
32.2335,144,368,144
32.2597,131,312,155
32.286,150,356,157
32.3123,144,360,139
32.3385,151,369,135
32.3648,152,353,128
32.391,168,345,148
32.4173,151,371,139
32.4436,198,361,149
32.4698,166,368,153
32.4961,160,332,132
32.5223,149,359,120
32.5486,139,347,131
32.5749,159,325,155
32.6011,132,321,157
32.6274,123,319,118
32.6536,138,347,133
32.6799,111,283,138
32.7062,130,333,162
32.7324,123,352,147
32.7587,137,312,146
32.7849,129,325,143
32.8112,149,342,136
32.8375,122,327,119
32.8637,129,326,157
32.89,144,285,136
32.9162,143,316,142
32.9425,120,327,149
32.9688,112,326,157
32.995,128,304,141
33.0213,121,317,148
33.0476,134,320,157
33.0738,111,378,129
33.1001,141,331,152
33.1263,132,310,145
33.1526,148,330,140
33.1789,171,327,147
33.2051,122,328,126
33.2314,150,328,140
33.2576,148,360,130
33.2839,149,310,141
33.3102,142,295,129
33.3364,142,335,131
33.3627,123,316,146
33.3889,138,322,137
33.4152,138,311,144
33.4415,132,334,134
33.4677,127,350,116
33.494,122,330,134
33.5202,124,306,127
33.5465,142,302,141
33.5728,124,360,156
33.599,132,308,131
33.6253,128,308,118
33.6515,143,306,127
33.6778,110,304,137
33.7041,129,316,141
33.7303,119,297,135
33.7566,136,321,143
33.7828,141,340,120
33.8091,124,295,140
33.8354,120,328,106
33.8616,123,326,108
33.8879,115,321,135
33.9141,139,296,118
33.9404,139,263,147
33.9667,112,282,123
33.9929,137,342,124
34.0192,130,317,136
34.0455,111,309,142
34.0717,121,298,115
34.098,137,305,137
34.1242,125,320,138
34.1505,118,300,109
34.1768,124,308,140
34.203,136,305,123
34.2293,161,315,139
34.2555,136,331,138
34.2818,143,317,170
34.3081,142,297,137
34.3343,141,328,140
34.3606,148,332,151
34.3868,132,300,152
34.4131,153,333,144
34.4394,172,311,166
34.4656,160,293,134
34.4919,169,342,148
34.5181,161,325,141
34.5444,169,315,145
34.5707,154,334,137
34.5969,174,315,169
34.6232,168,332,124
34.6494,171,341,162
34.6757,157,349,156
34.702,190,302,131
34.7282,158,334,175
34.7545,153,325,136
34.7807,155,330,147
34.807,150,336,117
34.8333,192,367,123
34.8595,223,387,153
34.8858,205,360,162
34.9121,195,350,142
34.9383,199,371,150
34.9646,181,336,135
34.9908,161,316,152
35.0171,182,363,146
35.0434,182,324,144
35.0696,153,326,126
35.0959,163,341,147
35.1221,160,316,153
35.1484,150,310,136
35.1747,143,307,152
35.2009,128,315,151
35.2272,153,290,178
35.2534,153,318,175
35.2797,200,309,164
35.306,196,370,163
35.3322,232,352,155
35.3585,188,385,155
35.3847,246,360,153
35.411,222,351,157
35.4373,209,365,136
35.4635,175,348,129
35.4898,181,370,153
35.516,190,359,147
35.5423,203,359,157
35.5686,187,339,154
35.5948,171,343,128
35.6211,151,275,132
35.6473,155,348,130
35.6736,129,306,172
35.6999,155,304,125
35.7261,142,305,127
35.7524,138,299,124
35.7786,138,333,119
35.8049,167,320,133
35.8312,199,321,123
35.8574,174,363,118
35.8837,174,325,136
35.91,194,356,118
35.9362,230,357,115
35.9625,215,364,128
35.9887,173,327,133
36.015,194,345,118
36.0413,189,332,120
36.0675,162,321,138
36.0938,112,278,116
36.12,129,312,126
36.1463,118,301,114
36.1726,109,296,111
36.1988,130,284,145
36.2251,108,305,124
36.2513,124,249,114
36.2776,106,263,109
36.3039,130,256,98
36.3301,117,268,115
36.3564,123,299,119
36.3826,121,288,124
36.4089,116,278,108
36.4352,131,295,112
36.4614,155,298,103
36.4877,133,266,115
36.5139,130,299,96
36.5402,128,269,134
36.5665,140,286,113
36.5927,125,296,108
36.619,161,269,118
36.6452,130,293,117
36.6715,106,269,116
36.6978,133,263,104
36.724,116,261,114
36.7503,102,285,135
36.7766,127,279,135
36.8028,115,295,133
36.8291,116,238,104
36.8553,93,306,94
36.8816,121,249,119
36.9079,123,318,122
36.9341,128,258,118
36.9604,125,295,120
36.9866,138,280,117
37.0129,113,271,105
37.0392,114,302,119
37.0654,105,273,112
37.0917,114,270,94
37.1179,122,264,102
37.1442,125,267,115
37.1705,119,275,122
37.1967,120,259,126
37.223,100,292,114
37.2492,120,249,119
37.2755,109,249,123
37.3018,133,308,98
37.328,110,288,104
37.3543,138,263,91
37.3805,114,292,107
37.4068,146,302,111
37.4331,127,274,109
37.4593,139,292,108
37.4856,145,279,124
37.5118,154,319,104
37.5381,196,343,100
37.5644,261,395,112
37.5906,381,454,119
37.6169,711,725,108
37.6431,620,655,88
37.6694,359,421,119
37.6957,362,449,130
37.7219,487,591,93
37.7482,376,410,122
37.7745,225,318,105
37.8007,178,292,104
37.827,146,320,103
37.8532,115,305,106
37.8795,107,275,96
37.9058,126,278,104
37.932,100,277,100
37.9583,108,276,121
37.9845,92,261,109
38.0108,127,247,80
38.0371,114,241,85
38.0633,123,238,83
38.0896,117,240,115
38.1158,116,246,97
38.1421,122,227,88
38.1684,149,271,102
38.1946,142,289,108
38.2209,155,308,100
38.2471,188,352,111
38.2734,211,371,89
38.2997,181,308,101
38.3259,177,296,114
38.3522,195,330,112
38.3784,173,296,131
38.4047,202,341,101
38.431,210,330,97
38.4572,203,363,105
38.4835,179,334,96
38.5097,134,318,101
38.536,161,301,95
38.5623,145,279,81
38.5885,112,249,92
38.6148,122,283,97
38.6411,121,261,84
38.6673,133,268,106
38.6936,104,269,107
38.7198,100,220,91
38.7461,100,250,111
38.7724,105,216,104
38.7986,116,239,93
38.8249,111,266,78
38.8511,107,281,88
38.8774,97,258,100
38.9037,113,271,88
38.9299,110,222,93
38.9562,105,246,103
38.9824,118,243,94
39.0087,102,233,77
39.035,116,244,107
39.0612,118,278,94
39.0875,101,238,97
39.1137,112,263,103
39.14,154,287,99
39.1663,187,340,113
39.1925,211,366,88
39.2188,190,278,88
39.245,179,281,106
39.2713,160,295,97
39.2976,143,289,91
39.3238,148,282,81
39.3501,123,248,97
39.3763,94,268,90
39.4026,94,235,86
39.4289,118,242,89
39.4551,92,236,85
39.4814,100,256,87
39.5076,106,248,81
39.5339,86,237,91
39.5602,108,228,97
39.5864,97,248,79
39.6127,76,214,96
39.639,105,217,84
39.6652,98,230,97
39.6915,107,196,105
39.7177,115,271,111
39.744,103,216,89
39.7703,96,226,95
39.7965,103,259,66
39.8228,100,232,100
39.849,91,237,92
39.8753,93,240,101
39.9016,111,259,81
39.9278,83,236,106
39.9541,110,271,85
39.9803,92,239,104
39.9935,93,213,102